 Plasma current I(rho)
  rad  pla 
 1408 1006
 rho(m) Ip(A) 
     0.00000         0.00000    
    0.138864E-02     4.97258    
    0.660019E-02     112.348    
    0.133998E-01     463.187    
    0.186114E-01     893.778    
    0.200000E-01     1032.21    
    0.210276E-01     1141.08    
    0.248841E-01     1598.47    
    0.299159E-01     2311.31    
    0.337724E-01     2946.81    
    0.348000E-01     3129.22    
    0.358276E-01     3317.14    
    0.396841E-01     4071.62    
    0.447159E-01     5173.18    
    0.485724E-01     6107.54    
    0.496000E-01     6369.72    
    0.506276E-01     6637.48    
    0.544841E-01     7692.25    
    0.595159E-01     9187.14    
    0.633724E-01     10424.3    
    0.644000E-01     10767.3    
    0.654276E-01     11116.0    
    0.692841E-01     12475.5    
    0.743159E-01     14369.8    
    0.781724E-01     15914.8    
    0.792000E-01     16340.1    
    0.802276E-01     16771.2    
    0.840841E-01     18440.7    
    0.891159E-01     20742.2    
    0.929724E-01     22601.0    
    0.940000E-01     23110.3    
    0.950276E-01     23625.5    
    0.988841E-01     25611.7    
    0.103916         28329.1    
    0.107772         30508.9    
    0.108800         31104.1    
    0.109828         31705.3    
    0.113684         34015.6    
    0.118716         37159.0    
    0.122572         39667.9    
    0.123600         40351.1    
    0.124628         41040.5    
    0.128484         43683.2    
    0.133516         47263.8    
    0.137372         50110.4    
    0.138400         50884.0    
    0.139428         51663.9    
    0.143284         54648.1    
    0.148316         58677.8    
    0.152172         61871.6    
    0.153200         62738.1    
    0.154228         63611.2    
    0.158084         66946.3    
    0.163116         71438.0    
    0.166972         74988.8    
    0.168000         75950.9    
    0.169028         76919.7    
    0.172884         80616.0    
    0.177916         85582.8    
    0.181772         89500.9    
    0.182800         90561.3    
    0.183828         91628.6    
    0.187684         95696.3    
    0.192716         101152.    
    0.196572         105448.    
    0.197600         106609.    
    0.198628         107778.    
    0.202484         112228.    
    0.207516         118186.    
    0.211372         122870.    
    0.212400         124136.    
    0.213428         125409.    
    0.217284         130251.    
    0.222316         136726.    
    0.226172         141809.    
    0.227200         143181.    
    0.228228         144561.    
    0.232084         149806.    
    0.237116         156811.    
    0.240972         162304.    
    0.242000         163785.    
    0.243028         165275.    
    0.246884         170934.    
    0.251916         178482.    
    0.255772         184394.    
    0.256800         185988.    
    0.257828         187590.    
    0.261684         193672.    
    0.266716         201776.    
    0.270572         208118.    
    0.271600         209826.    
    0.272628         211543.    
    0.276484         218058.    
    0.281516         226731.    
    0.285372         233511.    
    0.286400         235336.    
    0.287428         237171.    
    0.291284         244128.    
    0.296316         253380.    
    0.300172         260607.    
    0.301200         262552.    
    0.302228         264506.    
    0.306084         271913.    
    0.311116         281756.    
    0.314972         289437.    
    0.316000         291504.    
    0.317028         293579.    
    0.320884         301444.    
    0.325916         311887.    
    0.329772         320030.    
    0.330800         322220.    
    0.331828         324419.    
    0.335684         332748.    
    0.340716         343799.    
    0.344572         352410.    
    0.345600         354726.    
    0.346628         357049.    
    0.350484         365849.    
    0.355516         377516.    
    0.359372         386601.    
    0.360400         389042.    
    0.361428         391493.    
    0.365284         400768.    
    0.370316         413057.    
    0.374172         422620.    
    0.375200         425189.    
    0.376228         427767.    
    0.380084         437522.    
    0.385116         450438.    
    0.388972         460482.    
    0.390000         463180.    
    0.391028         465886.    
    0.394884         476124.    
    0.399916         489671.    
    0.403772         500199.    
    0.404800         503026.    
    0.405828         505862.    
    0.409684         516585.    
    0.414716         530765.    
    0.418572         541780.    
    0.419600         544736.    
    0.420628         547701.    
    0.424484         558910.    
    0.429516         573726.    
    0.433372         585227.    
    0.434400         588313.    
    0.435428         591409.    
    0.439284         603105.    
    0.444316         618555.    
    0.448172         630544.    
    0.449200         633759.    
    0.450228         636984.    
    0.454084         649167.    
    0.459116         665252.    
    0.462972         677726.    
    0.464000         681071.    
    0.465028         684425.    
    0.468884         697093.    
    0.473916         713811.    
    0.477772         726770.    
    0.478800         730244.    
    0.479828         733727.    
    0.483684         746878.    
    0.488716         764226.    
    0.492572         777666.    
    0.493600         781269.    
    0.494628         784880.    
    0.498484         798512.    
    0.503516         816485.    
    0.507372         830404.    
    0.508400         834134.    
    0.509428         837873.    
    0.513284         851982.    
    0.518316         870577.    
    0.522172         884971.    
    0.523200         888827.    
    0.524228         892692.    
    0.528084         907274.    
    0.533116         926485.    
    0.536972         941350.    
    0.538000         945331.    
    0.539028         949321.    
    0.542884         964372.    
    0.547916         984193.    
    0.551772         999523.    
    0.552800        0.100363E+07
    0.553828        0.100774E+07
    0.557684        0.102326E+07
    0.562716        0.104368E+07
    0.566572        0.105947E+07
    0.567600        0.106370E+07
    0.568628        0.106794E+07
    0.572484        0.108391E+07
    0.577516        0.110493E+07
    0.581372        0.112117E+07
    0.582400        0.112552E+07
    0.583428        0.112988E+07
    0.587284        0.114630E+07
    0.592316        0.116791E+07
    0.596172        0.118461E+07
    0.597200        0.118907E+07
    0.598228        0.119355E+07
    0.602084        0.121042E+07
    0.607116        0.123261E+07
    0.610972        0.124975E+07
    0.612000        0.125433E+07
    0.613028        0.125892E+07
    0.616884        0.127624E+07
    0.621916        0.129899E+07
    0.625772        0.131657E+07
    0.626800        0.132127E+07
    0.627828        0.132598E+07
    0.631684        0.134372E+07
    0.636716        0.136704E+07
    0.640572        0.138504E+07
    0.641600        0.138986E+07
    0.642628        0.139468E+07
    0.646484        0.141285E+07
    0.651516        0.143673E+07
    0.655372        0.145515E+07
    0.656400        0.146008E+07
    0.657428        0.146502E+07
    0.661284        0.148361E+07
    0.666316        0.150802E+07
    0.670172        0.152686E+07
    0.671200        0.153190E+07
    0.672228        0.153695E+07
    0.676084        0.155595E+07
    0.681116        0.158090E+07
    0.684972        0.160015E+07
    0.686000        0.160530E+07
    0.687028        0.161045E+07
    0.690884        0.162986E+07
    0.695916        0.165534E+07
    0.699772        0.167499E+07
    0.700800        0.168024E+07
    0.701828        0.168550E+07
    0.705684        0.170531E+07
    0.710716        0.173131E+07
    0.714572        0.175135E+07
    0.715600        0.175671E+07
    0.716628        0.176207E+07
    0.720484        0.178227E+07
    0.725516        0.180878E+07
    0.729372        0.182921E+07
    0.730400        0.183467E+07
    0.731428        0.184013E+07
    0.735284        0.186072E+07
    0.740316        0.188772E+07
    0.744172        0.190853E+07
    0.745200        0.191409E+07
    0.746228        0.191966E+07
    0.750084        0.194062E+07
    0.755116        0.196811E+07
    0.758972        0.198930E+07
    0.760000        0.199496E+07
    0.761028        0.200062E+07
    0.764884        0.202195E+07
    0.769916        0.204993E+07
    0.773772        0.207148E+07
    0.774800        0.207724E+07
    0.775828        0.208300E+07
    0.779684        0.210469E+07
    0.784716        0.213314E+07
    0.788572        0.215505E+07
    0.789600        0.216090E+07
    0.790628        0.216676E+07
    0.794484        0.218881E+07
    0.799516        0.221772E+07
    0.803372        0.223998E+07
    0.804400        0.224593E+07
    0.805428        0.225188E+07
    0.809284        0.227428E+07
    0.814316        0.230364E+07
    0.818172        0.232625E+07
    0.819200        0.233229E+07
    0.820228        0.233833E+07
    0.824084        0.236108E+07
    0.829116        0.239089E+07
    0.832972        0.241383E+07
    0.834000        0.241996E+07
    0.835028        0.242610E+07
    0.838884        0.244918E+07
    0.843916        0.247942E+07
    0.847772        0.250270E+07
    0.848800        0.250892E+07
    0.849828        0.251514E+07
    0.853684        0.253856E+07
    0.858716        0.256923E+07
    0.862572        0.259284E+07
    0.863600        0.259914E+07
    0.864628        0.260545E+07
    0.868484        0.262919E+07
    0.873516        0.266028E+07
    0.877372        0.268421E+07
    0.878400        0.269060E+07
    0.879428        0.269699E+07
    0.883284        0.272104E+07
    0.888316        0.275255E+07
    0.892172        0.277679E+07
    0.893200        0.278326E+07
    0.894228        0.278974E+07
    0.898084        0.281411E+07
    0.903116        0.284602E+07
    0.906972        0.287057E+07
    0.908000        0.287712E+07
    0.909028        0.288368E+07
    0.912884        0.290835E+07
    0.917916        0.294066E+07
    0.921772        0.296551E+07
    0.922800        0.297214E+07
    0.923828        0.297878E+07
    0.927684        0.300375E+07
    0.932716        0.303644E+07
    0.936572        0.306159E+07
    0.937600        0.306830E+07
    0.938628        0.307502E+07
    0.942484        0.310029E+07
    0.947516        0.313336E+07
    0.951372        0.315880E+07
    0.952400        0.316559E+07
    0.953428        0.317238E+07
    0.957284        0.319793E+07
    0.962316        0.323138E+07
    0.966172        0.325710E+07
    0.967200        0.326396E+07
    0.968228        0.327083E+07
    0.972084        0.329666E+07
    0.977116        0.333047E+07
    0.980972        0.335647E+07
    0.982000        0.336341E+07
    0.983028        0.337035E+07
    0.986884        0.339646E+07
    0.991916        0.343063E+07
    0.995772        0.345689E+07
    0.996800        0.346391E+07
    0.997828        0.347092E+07
     1.00168        0.349730E+07
     1.00672        0.353181E+07
     1.01057        0.355835E+07
     1.01160        0.356543E+07
     1.01263        0.357251E+07
     1.01648        0.359915E+07
     1.02152        0.363401E+07
     1.02537        0.366080E+07
     1.02640        0.366795E+07
     1.02743        0.367511E+07
     1.03128        0.370200E+07
     1.03632        0.373719E+07
     1.04017        0.376424E+07
     1.04120        0.377146E+07
     1.04223        0.377868E+07
     1.04608        0.380583E+07
     1.05112        0.384134E+07
     1.05497        0.386864E+07
     1.05600        0.387592E+07
     1.05703        0.388321E+07
     1.06088        0.391060E+07
     1.06592        0.394643E+07
     1.06977        0.397397E+07
     1.07080        0.398132E+07
     1.07183        0.398867E+07
     1.07568        0.401630E+07
     1.08072        0.405244E+07
     1.08457        0.408021E+07
     1.08560        0.408762E+07
     1.08663        0.409504E+07
     1.09048        0.412290E+07
     1.09552        0.415934E+07
     1.09937        0.418734E+07
     1.10040        0.419482E+07
     1.10143        0.420229E+07
     1.10528        0.423038E+07
     1.11032        0.426712E+07
     1.11417        0.429534E+07
     1.11520        0.430287E+07
     1.11623        0.431041E+07
     1.12008        0.433872E+07
     1.12512        0.437574E+07
     1.12897        0.440418E+07
     1.13000        0.441177E+07
     1.13103        0.441936E+07
     1.13488        0.444789E+07
     1.13992        0.448519E+07
     1.14377        0.451384E+07
     1.14480        0.452148E+07
     1.14583        0.452913E+07
     1.14968        0.455787E+07
     1.15472        0.459544E+07
     1.15857        0.462429E+07
     1.15960        0.463199E+07
     1.16063        0.463969E+07
     1.16448        0.466863E+07
     1.16952        0.470646E+07
     1.17337        0.473552E+07
     1.17440        0.474327E+07
     1.17543        0.475102E+07
     1.17928        0.478015E+07
     1.18432        0.481824E+07
     1.18817        0.484748E+07
     1.18920        0.485529E+07
     1.19023        0.486309E+07
     1.19408        0.489241E+07
     1.19912        0.493074E+07
     1.20297        0.496017E+07
     1.20400        0.496803E+07
     1.20503        0.497588E+07
     1.20888        0.500538E+07
     1.21392        0.504395E+07
     1.21777        0.507356E+07
     1.21880        0.508146E+07
     1.21983        0.508936E+07
     1.22368        0.511904E+07
     1.22872        0.515784E+07
     1.23257        0.518762E+07
     1.23360        0.519557E+07
     1.23463        0.520351E+07
     1.23848        0.523337E+07
     1.24352        0.527238E+07
     1.24737        0.530233E+07
     1.24840        0.531032E+07
     1.24943        0.531831E+07
     1.25328        0.534833E+07
     1.25832        0.538755E+07
     1.26217        0.541766E+07
     1.26320        0.542569E+07
     1.26423        0.543372E+07
     1.26808        0.546390E+07
     1.27312        0.550332E+07
     1.27697        0.553359E+07
     1.27800        0.554166E+07
     1.27903        0.554973E+07
     1.28288        0.558006E+07
     1.28792        0.561968E+07
     1.29177        0.565009E+07
     1.29280        0.565820E+07
     1.29383        0.566631E+07
     1.29768        0.569678E+07
     1.30272        0.573658E+07
     1.30657        0.576713E+07
     1.30760        0.577528E+07
     1.30863        0.578343E+07
     1.31248        0.581403E+07
     1.31752        0.585401E+07
     1.32137        0.588470E+07
     1.32240        0.589288E+07
     1.32343        0.590106E+07
     1.32728        0.593180E+07
     1.33232        0.597194E+07
     1.33617        0.600275E+07
     1.33720        0.601097E+07
     1.33823        0.601919E+07
     1.34208        0.605004E+07
     1.34712        0.609035E+07
     1.35097        0.612128E+07
     1.35200        0.612953E+07
     1.35303        0.613777E+07
     1.35688        0.616875E+07
     1.36192        0.620920E+07
     1.36577        0.624025E+07
     1.36680        0.624852E+07
     1.36783        0.625680E+07
     1.37168        0.628788E+07
     1.37672        0.632848E+07
     1.38057        0.635963E+07
     1.38160        0.636793E+07
     1.38263        0.637623E+07
     1.38648        0.640742E+07
     1.39152        0.644815E+07
     1.39537        0.647939E+07
     1.39640        0.648772E+07
     1.39743        0.649605E+07
     1.40128        0.652733E+07
     1.40632        0.656818E+07
     1.41017        0.659952E+07
     1.41120        0.660787E+07
     1.41223        0.661623E+07
     1.41608        0.664760E+07
     1.42112        0.668856E+07
     1.42497        0.671998E+07
     1.42600        0.672835E+07
     1.42703        0.673673E+07
     1.43088        0.676818E+07
     1.43592        0.680924E+07
     1.43977        0.684074E+07
     1.44080        0.684914E+07
     1.44183        0.685753E+07
     1.44568        0.688906E+07
     1.45072        0.693022E+07
     1.45457        0.696178E+07
     1.45560        0.697019E+07
     1.45663        0.697861E+07
     1.46048        0.701020E+07
     1.46552        0.705144E+07
     1.46937        0.708307E+07
     1.47040        0.709150E+07
     1.47143        0.709993E+07
     1.47528        0.713158E+07
     1.48032        0.717290E+07
     1.48417        0.720458E+07
     1.48520        0.721302E+07
     1.48623        0.722147E+07
     1.49008        0.725317E+07
     1.49512        0.729455E+07
     1.49897        0.732628E+07
     1.50000        0.733474E+07
     1.50092        0.734234E+07
     1.50439        0.737087E+07
     1.50891        0.740810E+07
     1.51238        0.743665E+07
     1.51330        0.744426E+07
     1.51422        0.745187E+07
     1.51769        0.748042E+07
     1.52221        0.751770E+07
     1.52568        0.754627E+07
     1.52660        0.755388E+07
     1.52752        0.756150E+07
     1.53099        0.759008E+07
     1.53551        0.762738E+07
     1.53898        0.765598E+07
     1.53990        0.766360E+07
     1.54082        0.767122E+07
     1.54429        0.769982E+07
     1.54881        0.773715E+07
     1.55228        0.776576E+07
     1.55320        0.777338E+07
     1.55412        0.778101E+07
     1.55759        0.780963E+07
     1.56211        0.784697E+07
     1.56558        0.787559E+07
     1.56650        0.788321E+07
     1.56742        0.789084E+07
     1.57089        0.791947E+07
     1.57541        0.795681E+07
     1.57888        0.798544E+07
     1.57980        0.799307E+07
     1.58072        0.800070E+07
     1.58419        0.802932E+07
     1.58871        0.806667E+07
     1.59218        0.809530E+07
     1.59310        0.810293E+07
     1.59402        0.811056E+07
     1.59749        0.813918E+07
     1.60201        0.817652E+07
     1.60548        0.820514E+07
     1.60640        0.821277E+07
     1.60732        0.822039E+07
     1.61079        0.824901E+07
     1.61531        0.828634E+07
     1.61878        0.831495E+07
     1.61970        0.832257E+07
     1.62062        0.833019E+07
     1.62409        0.835879E+07
     1.62861        0.839610E+07
     1.63208        0.842469E+07
     1.63300        0.843231E+07
     1.63392        0.843993E+07
     1.63739        0.846851E+07
     1.64191        0.850579E+07
     1.64538        0.853435E+07
     1.64630        0.854196E+07
     1.64722        0.854957E+07
     1.65069        0.857813E+07
     1.65521        0.861537E+07
     1.65868        0.864391E+07
     1.65960        0.865151E+07
     1.66052        0.865912E+07
     1.66399        0.868764E+07
     1.66851        0.872484E+07
     1.67198        0.875334E+07
     1.67290        0.876094E+07
     1.67382        0.876853E+07
     1.67729        0.879701E+07
     1.68181        0.883416E+07
     1.68528        0.886263E+07
     1.68620        0.887021E+07
     1.68712        0.887779E+07
     1.69059        0.890623E+07
     1.69511        0.894332E+07
     1.69858        0.897174E+07
     1.69950        0.897931E+07
     1.70042        0.898687E+07
     1.70389        0.901527E+07
     1.70841        0.905229E+07
     1.71188        0.908066E+07
     1.71280        0.908821E+07
     1.71372        0.909576E+07
     1.71719        0.912410E+07
     1.72171        0.916105E+07
     1.72518        0.918936E+07
     1.72610        0.919690E+07
     1.72702        0.920443E+07
     1.73049        0.923271E+07
     1.73501        0.926958E+07
     1.73848        0.929782E+07
     1.73940        0.930534E+07
     1.74032        0.931286E+07
     1.74379        0.934107E+07
     1.74831        0.937785E+07
     1.75178        0.940602E+07
     1.75270        0.941352E+07
     1.75362        0.942103E+07
     1.75709        0.944916E+07
     1.76161        0.948585E+07
     1.76508        0.951394E+07
     1.76600        0.952142E+07
     1.76692        0.952890E+07
     1.77039        0.955696E+07
     1.77491        0.959354E+07
     1.77838        0.962155E+07
     1.77930        0.962901E+07
     1.78022        0.963646E+07
     1.78369        0.966444E+07
     1.78821        0.970090E+07
     1.79168        0.972882E+07
     1.79260        0.973626E+07
     1.79352        0.974369E+07
     1.79699        0.977158E+07
     1.80151        0.980792E+07
     1.80498        0.983575E+07
     1.80590        0.984316E+07
     1.80682        0.985057E+07
     1.81029        0.987835E+07
     1.81481        0.991457E+07
     1.81828        0.994229E+07
     1.81920        0.994968E+07
     1.82012        0.995706E+07
     1.82359        0.998474E+07
     1.82811        0.100208E+08
     1.83158        0.100484E+08
     1.83250        0.100558E+08
     1.83342        0.100631E+08
     1.83689        0.100907E+08
     1.84141        0.101267E+08
     1.84488        0.101542E+08
     1.84580        0.101615E+08
     1.84672        0.101688E+08
     1.85019        0.101963E+08
     1.85471        0.102320E+08
     1.85818        0.102594E+08
     1.85910        0.102667E+08
     1.86002        0.102740E+08
     1.86349        0.103013E+08
     1.86801        0.103370E+08
     1.87148        0.103642E+08
     1.87240        0.103715E+08
     1.87332        0.103787E+08
     1.87679        0.104060E+08
     1.88131        0.104414E+08
     1.88478        0.104685E+08
     1.88570        0.104758E+08
     1.88662        0.104830E+08
     1.89009        0.105100E+08
     1.89461        0.105453E+08
     1.89808        0.105723E+08
     1.89900        0.105795E+08
     1.89992        0.105867E+08
     1.90339        0.106136E+08
     1.90791        0.106487E+08
     1.91138        0.106755E+08
     1.91230        0.106827E+08
     1.91322        0.106898E+08
     1.91669        0.107166E+08
     1.92121        0.107515E+08
     1.92468        0.107782E+08
     1.92560        0.107853E+08
     1.92652        0.107924E+08
     1.92999        0.108191E+08
     1.93451        0.108538E+08
     1.93798        0.108803E+08
     1.93890        0.108874E+08
     1.93982        0.108944E+08
     1.94329        0.109209E+08
     1.94781        0.109554E+08
     1.95128        0.109818E+08
     1.95220        0.109888E+08
     1.95312        0.109958E+08
     1.95659        0.110221E+08
     1.96111        0.110564E+08
     1.96458        0.110826E+08
     1.96550        0.110895E+08
     1.96642        0.110965E+08
     1.96989        0.111227E+08
     1.97441        0.111567E+08
     1.97788        0.111827E+08
     1.97880        0.111897E+08
     1.97972        0.111966E+08
     1.98319        0.112225E+08
     1.98771        0.112563E+08
     1.99118        0.112822E+08
     1.99210        0.112891E+08
     1.99302        0.112959E+08
     1.99649        0.113217E+08
     2.00101        0.113553E+08
     2.00448        0.113809E+08
     2.00540        0.113878E+08
     2.00632        0.113946E+08
     2.00979        0.114202E+08
     2.01431        0.114535E+08
     2.01778        0.114789E+08
     2.01870        0.114857E+08
     2.01962        0.114925E+08
     2.02309        0.115179E+08
     2.02761        0.115509E+08
     2.03108        0.115762E+08
     2.03200        0.115829E+08
     2.03292        0.115896E+08
     2.03639        0.116148E+08
     2.04091        0.116476E+08
     2.04438        0.116726E+08
     2.04530        0.116793E+08
     2.04622        0.116859E+08
     2.04969        0.117109E+08
     2.05421        0.117434E+08
     2.05768        0.117682E+08
     2.05860        0.117749E+08
     2.05952        0.117815E+08
     2.06299        0.118062E+08
     2.06751        0.118384E+08
     2.07098        0.118630E+08
     2.07190        0.118696E+08
     2.07282        0.118761E+08
     2.07629        0.119007E+08
     2.08081        0.119326E+08
     2.08428        0.119570E+08
     2.08520        0.119634E+08
     2.08612        0.119699E+08
     2.08959        0.119942E+08
     2.09411        0.120258E+08
     2.09758        0.120500E+08
     2.09850        0.120564E+08
     2.09942        0.120628E+08
     2.10289        0.120869E+08
     2.10741        0.121182E+08
     2.11088        0.121421E+08
     2.11180        0.121485E+08
     2.11272        0.121548E+08
     2.11619        0.121786E+08
     2.12071        0.122096E+08
     2.12418        0.122333E+08
     2.12510        0.122396E+08
     2.12602        0.122458E+08
     2.12949        0.122694E+08
     2.13401        0.123000E+08
     2.13748        0.123235E+08
     2.13840        0.123297E+08
     2.13932        0.123359E+08
     2.14279        0.123592E+08
     2.14731        0.123895E+08
     2.15078        0.124127E+08
     2.15170        0.124188E+08
     2.15262        0.124250E+08
     2.15609        0.124480E+08
     2.16061        0.124780E+08
     2.16408        0.125008E+08
     2.16500        0.125069E+08
     2.16592        0.125130E+08
     2.16939        0.125358E+08
     2.17391        0.125654E+08
     2.17738        0.125880E+08
     2.17830        0.125940E+08
     2.17922        0.126000E+08
     2.18269        0.126225E+08
     2.18721        0.126517E+08
     2.19068        0.126740E+08
     2.19160        0.126800E+08
     2.19252        0.126859E+08
     2.19599        0.127081E+08
     2.20051        0.127369E+08
     2.20398        0.127590E+08
     2.20490        0.127648E+08
     2.20582        0.127707E+08
     2.20929        0.127926E+08
     2.21381        0.128211E+08
     2.21728        0.128428E+08
     2.21820        0.128486E+08
     2.21912        0.128544E+08
     2.22259        0.128760E+08
     2.22711        0.129041E+08
     2.23058        0.129255E+08
     2.23150        0.129312E+08
     2.23242        0.129369E+08
     2.23589        0.129582E+08
     2.24041        0.129859E+08
     2.24388        0.130070E+08
     2.24480        0.130126E+08
     2.24572        0.130182E+08
     2.24919        0.130392E+08
     2.25371        0.130665E+08
     2.25718        0.130873E+08
     2.25810        0.130928E+08
     2.25902        0.130983E+08
     2.26249        0.131190E+08
     2.26701        0.131459E+08
     2.27048        0.131663E+08
     2.27140        0.131718E+08
     2.27232        0.131772E+08
     2.27579        0.131976E+08
     2.28031        0.132240E+08
     2.28378        0.132441E+08
     2.28470        0.132495E+08
     2.28562        0.132548E+08
     2.28909        0.132748E+08
     2.29361        0.133008E+08
     2.29708        0.133206E+08
     2.29800        0.133259E+08
     2.29892        0.133312E+08
     2.30239        0.133508E+08
     2.30691        0.133764E+08
     2.31038        0.133958E+08
     2.31130        0.134010E+08
     2.31222        0.134062E+08
     2.31569        0.134255E+08
     2.32021        0.134506E+08
     2.32368        0.134697E+08
     2.32460        0.134748E+08
     2.32552        0.134798E+08
     2.32899        0.134988E+08
     2.33351        0.135234E+08
     2.33698        0.135422E+08
     2.33790        0.135471E+08
     2.33882        0.135521E+08
     2.34229        0.135707E+08
     2.34681        0.135949E+08
     2.35028        0.136133E+08
     2.35120        0.136181E+08
     2.35212        0.136230E+08
     2.35559        0.136413E+08
     2.36011        0.136649E+08
     2.36358        0.136829E+08
     2.36450        0.136877E+08
     2.36542        0.136925E+08
     2.36889        0.137103E+08
     2.37341        0.137335E+08
     2.37688        0.137511E+08
     2.37780        0.137558E+08
     2.37872        0.137605E+08
     2.38219        0.137780E+08
     2.38671        0.138006E+08
     2.39018        0.138179E+08
     2.39110        0.138224E+08
     2.39202        0.138270E+08
     2.39549        0.138441E+08
     2.40001        0.138662E+08
     2.40348        0.138831E+08
     2.40440        0.138875E+08
     2.40532        0.138920E+08
     2.40879        0.139087E+08
     2.41331        0.139303E+08
     2.41678        0.139468E+08
     2.41770        0.139511E+08
     2.41862        0.139555E+08
     2.42209        0.139718E+08
     2.42661        0.139928E+08
     2.43008        0.140089E+08
     2.43100        0.140131E+08
     2.43192        0.140174E+08
     2.43539        0.140333E+08
     2.43991        0.140538E+08
     2.44338        0.140694E+08
     2.44430        0.140736E+08
     2.44522        0.140777E+08
     2.44869        0.140931E+08
     2.45321        0.141131E+08
     2.45668        0.141283E+08
     2.45760        0.141323E+08
     2.45852        0.141364E+08
     2.46199        0.141514E+08
     2.46651        0.141708E+08
     2.46998        0.141856E+08
     2.47090        0.141895E+08
     2.47182        0.141934E+08
     2.47529        0.142080E+08
     2.47981        0.142268E+08
     2.48328        0.142412E+08
     2.48420        0.142450E+08
     2.48512        0.142487E+08
     2.48859        0.142629E+08
     2.49311        0.142812E+08
     2.49658        0.142950E+08
     2.49750        0.142987E+08
     2.49842        0.143024E+08
     2.50189        0.143161E+08
     2.50641        0.143338E+08
     2.50988        0.143472E+08
     2.51080        0.143507E+08
     2.51172        0.143543E+08
     2.51519        0.143675E+08
     2.51971        0.143846E+08
     2.52318        0.143975E+08
     2.52410        0.144010E+08
     2.52502        0.144044E+08
     2.52849        0.144172E+08
     2.53301        0.144336E+08
     2.53648        0.144461E+08
     2.53740        0.144494E+08
     2.53832        0.144527E+08
     2.54179        0.144650E+08
     2.54631        0.144809E+08
     2.54978        0.144929E+08
     2.55070        0.144961E+08
     2.55162        0.144992E+08
     2.55509        0.145110E+08
     2.55961        0.145263E+08
     2.56308        0.145378E+08
     2.56400        0.145408E+08
     2.56492        0.145439E+08
     2.56839        0.145552E+08
     2.57291        0.145698E+08
     2.57638        0.145808E+08
     2.57730        0.145837E+08
     2.57822        0.145866E+08
     2.58169        0.145974E+08
     2.58621        0.146114E+08
     2.58968        0.146219E+08
     2.59060        0.146247E+08
     2.59152        0.146275E+08
     2.59499        0.146378E+08
     2.59951        0.146510E+08
     2.60298        0.146611E+08
     2.60390        0.146637E+08
     2.60482        0.146663E+08
     2.60829        0.146762E+08
     2.61281        0.146888E+08
     2.61628        0.146983E+08
     2.61720        0.147008E+08
     2.61812        0.147033E+08
     2.62159        0.147126E+08
     2.62611        0.147245E+08
     2.62958        0.147334E+08
     2.63050        0.147358E+08
     2.63142        0.147382E+08
     2.63489        0.147469E+08
     2.63941        0.147582E+08
     2.64288        0.147666E+08
     2.64380        0.147688E+08
     2.64472        0.147710E+08
     2.64819        0.147793E+08
     2.65271        0.147898E+08
     2.65618        0.147977E+08
     2.65710        0.147998E+08
     2.65802        0.148019E+08
     2.66149        0.148095E+08
     2.66601        0.148193E+08
     2.66948        0.148267E+08
     2.67040        0.148286E+08
     2.67132        0.148306E+08
     2.67479        0.148377E+08
     2.67931        0.148468E+08
     2.68278        0.148536E+08
     2.68370        0.148554E+08
     2.68462        0.148571E+08
     2.68809        0.148637E+08
     2.69261        0.148721E+08
     2.69608        0.148783E+08
     2.69700        0.148799E+08
     2.69792        0.148816E+08
     2.70139        0.148876E+08
     2.70591        0.148952E+08
     2.70938        0.149008E+08
     2.71030        0.149023E+08
     2.71122        0.149038E+08
     2.71469        0.149092E+08
     2.71921        0.149161E+08
     2.72268        0.149211E+08
     2.72360        0.149225E+08
     2.72452        0.149238E+08
     2.72799        0.149286E+08
     2.73251        0.149347E+08
     2.73598        0.149392E+08
     2.73690        0.149404E+08
     2.73782        0.149415E+08
     2.74129        0.149458E+08
     2.74581        0.149511E+08
     2.74928        0.149550E+08
     2.75020        0.149560E+08
     2.75112        0.149570E+08
     2.75459        0.149606E+08
     2.75911        0.149652E+08
     2.76258        0.149685E+08
     2.76350        0.149693E+08
     2.76442        0.149701E+08
     2.76789        0.149732E+08
     2.77241        0.149769E+08
     2.77588        0.149796E+08
     2.77680        0.149803E+08
     2.77772        0.149809E+08
     2.78119        0.149834E+08
     2.78571        0.149863E+08
     2.78918        0.149883E+08
     2.79010        0.149889E+08
     2.79102        0.149894E+08
     2.79449        0.149912E+08
     2.79901        0.149933E+08
     2.80248        0.149947E+08
     2.80340        0.149950E+08
     2.80432        0.149954E+08
     2.80779        0.149965E+08
     2.81231        0.149978E+08
     2.81578        0.149986E+08
     2.81670        0.149988E+08
     2.81762        0.149989E+08
     2.82109        0.149994E+08
     2.82561        0.149999E+08
     2.82908        0.150000E+08
     2.83000        0.150000E+08
     2.83000        0.150000E+08
     2.83030        0.150000E+08
     2.83140        0.150000E+08
     2.83285        0.150000E+08
     2.83395        0.150000E+08
     2.83425        0.150000E+08
     2.83455        0.150000E+08
     2.83565        0.150000E+08
     2.83710        0.150000E+08
     2.83820        0.150000E+08
     2.83850        0.150000E+08
     2.83880        0.150000E+08
     2.83990        0.150000E+08
     2.84135        0.150000E+08
     2.84245        0.150000E+08
     2.84275        0.150000E+08
     2.84305        0.150000E+08
     2.84415        0.150000E+08
     2.84560        0.150000E+08
     2.84670        0.150000E+08
     2.84700        0.150000E+08
     2.84730        0.150000E+08
     2.84840        0.150000E+08
     2.84985        0.150000E+08
     2.85095        0.150000E+08
     2.85125        0.150000E+08
     2.85155        0.150000E+08
     2.85265        0.150000E+08
     2.85410        0.150000E+08
     2.85520        0.150000E+08
     2.85550        0.150000E+08
     2.85580        0.150000E+08
     2.85690        0.150000E+08
     2.85835        0.150000E+08
     2.85945        0.150000E+08
     2.85975        0.150000E+08
     2.86005        0.150000E+08
     2.86115        0.150000E+08
     2.86260        0.150000E+08
     2.86370        0.150000E+08
     2.86400        0.150000E+08
     2.86430        0.150000E+08
     2.86540        0.150000E+08
     2.86685        0.150000E+08
     2.86795        0.150000E+08
     2.86825        0.150000E+08
     2.86855        0.150000E+08
     2.86965        0.150000E+08
     2.87110        0.150000E+08
     2.87220        0.150000E+08
     2.87250        0.150000E+08
     2.87280        0.150000E+08
     2.87390        0.150000E+08
     2.87535        0.150000E+08
     2.87645        0.150000E+08
     2.87675        0.150000E+08
     2.87705        0.150000E+08
     2.87815        0.150000E+08
     2.87960        0.150000E+08
     2.88070        0.150000E+08
     2.88100        0.150000E+08
     2.88130        0.150000E+08
     2.88240        0.150000E+08
     2.88385        0.150000E+08
     2.88495        0.150000E+08
     2.88525        0.150000E+08
     2.88555        0.150000E+08
     2.88665        0.150000E+08
     2.88810        0.150000E+08
     2.88920        0.150000E+08
     2.88950        0.150000E+08
     2.88980        0.150000E+08
     2.89090        0.150000E+08
     2.89235        0.150000E+08
     2.89345        0.150000E+08
     2.89375        0.150000E+08
     2.89405        0.150000E+08
     2.89515        0.150000E+08
     2.89660        0.150000E+08
     2.89770        0.150000E+08
     2.89800        0.150000E+08
     2.89830        0.150000E+08
     2.89940        0.150000E+08
     2.90085        0.150000E+08
     2.90195        0.150000E+08
     2.90225        0.150000E+08
     2.90255        0.150000E+08
     2.90365        0.150000E+08
     2.90510        0.150000E+08
     2.90620        0.150000E+08
     2.90650        0.150000E+08
     2.90680        0.150000E+08
     2.90790        0.150000E+08
     2.90935        0.150000E+08
     2.91045        0.150000E+08
     2.91075        0.150000E+08
     2.91105        0.150000E+08
     2.91215        0.150000E+08
     2.91360        0.150000E+08
     2.91470        0.150000E+08
     2.91500        0.150000E+08
     2.91530        0.150000E+08
     2.91640        0.150000E+08
     2.91785        0.150000E+08
     2.91895        0.150000E+08
     2.91925        0.150000E+08
     2.91955        0.150000E+08
     2.92065        0.150000E+08
     2.92210        0.150000E+08
     2.92320        0.150000E+08
     2.92350        0.150000E+08
     2.92380        0.150000E+08
     2.92490        0.150000E+08
     2.92635        0.150000E+08
     2.92745        0.150000E+08
     2.92775        0.150000E+08
     2.92805        0.150000E+08
     2.92915        0.150000E+08
     2.93060        0.150000E+08
     2.93170        0.150000E+08
     2.93200        0.150000E+08
     2.93230        0.150000E+08
     2.93340        0.150000E+08
     2.93485        0.150000E+08
     2.93595        0.150000E+08
     2.93625        0.150000E+08
     2.93655        0.150000E+08
     2.93765        0.150000E+08
     2.93910        0.150000E+08
     2.94020        0.150000E+08
     2.94050        0.150000E+08
     2.94080        0.150000E+08
     2.94190        0.150000E+08
     2.94335        0.150000E+08
     2.94445        0.150000E+08
     2.94475        0.150000E+08
     2.94505        0.150000E+08
     2.94615        0.150000E+08
     2.94760        0.150000E+08
     2.94870        0.150000E+08
     2.94900        0.150000E+08
     2.94930        0.150000E+08
     2.95040        0.150000E+08
     2.95185        0.150000E+08
     2.95295        0.150000E+08
     2.95325        0.150000E+08
     2.95355        0.150000E+08
     2.95465        0.150000E+08
     2.95610        0.150000E+08
     2.95720        0.150000E+08
     2.95750        0.150000E+08
     2.95780        0.150000E+08
     2.95890        0.150000E+08
     2.96035        0.150000E+08
     2.96145        0.150000E+08
     2.96175        0.150000E+08
     2.96205        0.150000E+08
     2.96315        0.150000E+08
     2.96460        0.150000E+08
     2.96570        0.150000E+08
     2.96600        0.150000E+08
     2.96630        0.150000E+08
     2.96740        0.150000E+08
     2.96885        0.150000E+08
     2.96995        0.150000E+08
     2.97025        0.150000E+08
     2.97055        0.150000E+08
     2.97165        0.150000E+08
     2.97310        0.150000E+08
     2.97420        0.150000E+08
     2.97450        0.150000E+08
     2.97480        0.150000E+08
     2.97590        0.150000E+08
     2.97735        0.150000E+08
     2.97845        0.150000E+08
     2.97875        0.150000E+08
     2.97905        0.150000E+08
     2.98015        0.150000E+08
     2.98160        0.150000E+08
     2.98270        0.150000E+08
     2.98300        0.150000E+08
     2.98330        0.150000E+08
     2.98440        0.150000E+08
     2.98585        0.150000E+08
     2.98695        0.150000E+08
     2.98725        0.150000E+08
     2.98755        0.150000E+08
     2.98865        0.150000E+08
     2.99010        0.150000E+08
     2.99120        0.150000E+08
     2.99150        0.150000E+08
     2.99180        0.150000E+08
     2.99290        0.150000E+08
     2.99435        0.150000E+08
     2.99545        0.150000E+08
     2.99575        0.150000E+08
     2.99605        0.150000E+08
     2.99715        0.150000E+08
     2.99860        0.150000E+08
     2.99970        0.150000E+08
     3.00000        0.150000E+08
     3.00000        0.150000E+08
     3.00035        0.150000E+08
     3.00165        0.150000E+08
     3.00335        0.150000E+08
     3.00465        0.150000E+08
     3.00500        0.150000E+08
     3.00535        0.150000E+08
     3.00665        0.150000E+08
     3.00835        0.150000E+08
     3.00965        0.150000E+08
     3.01000        0.150000E+08
     3.01035        0.150000E+08
     3.01165        0.150000E+08
     3.01335        0.150000E+08
     3.01465        0.150000E+08
     3.01500        0.150000E+08
     3.01535        0.150000E+08
     3.01665        0.150000E+08
     3.01835        0.150000E+08
     3.01965        0.150000E+08
     3.02000        0.150000E+08
     3.02035        0.150000E+08
     3.02165        0.150000E+08
     3.02335        0.150000E+08
     3.02465        0.150000E+08
     3.02500        0.150000E+08
     3.02535        0.150000E+08
     3.02665        0.150000E+08
     3.02835        0.150000E+08
     3.02965        0.150000E+08
     3.03000        0.150000E+08
     3.03035        0.150000E+08
     3.03165        0.150000E+08
     3.03335        0.150000E+08
     3.03465        0.150000E+08
     3.03500        0.150000E+08
     3.03535        0.150000E+08
     3.03665        0.150000E+08
     3.03835        0.150000E+08
     3.03965        0.150000E+08
     3.04000        0.150000E+08
     3.04035        0.150000E+08
     3.04165        0.150000E+08
     3.04335        0.150000E+08
     3.04465        0.150000E+08
     3.04500        0.150000E+08
     3.04535        0.150000E+08
     3.04665        0.150000E+08
     3.04835        0.150000E+08
     3.04965        0.150000E+08
     3.05000        0.150000E+08
     3.05035        0.150000E+08
     3.05165        0.150000E+08
     3.05335        0.150000E+08
     3.05465        0.150000E+08
     3.05500        0.150000E+08
     3.05535        0.150000E+08
     3.05665        0.150000E+08
     3.05835        0.150000E+08
     3.05965        0.150000E+08
     3.06000        0.150000E+08
     3.06035        0.150000E+08
     3.06165        0.150000E+08
     3.06335        0.150000E+08
     3.06465        0.150000E+08
     3.06500        0.150000E+08
     3.06535        0.150000E+08
     3.06665        0.150000E+08
     3.06835        0.150000E+08
     3.06965        0.150000E+08
     3.07000        0.150000E+08
     3.07035        0.150000E+08
     3.07165        0.150000E+08
     3.07335        0.150000E+08
     3.07465        0.150000E+08
     3.07500        0.150000E+08
     3.07535        0.150000E+08
     3.07665        0.150000E+08
     3.07835        0.150000E+08
     3.07965        0.150000E+08
     3.08000        0.150000E+08
     3.08035        0.150000E+08
     3.08165        0.150000E+08
     3.08335        0.150000E+08
     3.08465        0.150000E+08
     3.08500        0.150000E+08
     3.08535        0.150000E+08
     3.08665        0.150000E+08
     3.08835        0.150000E+08
     3.08965        0.150000E+08
     3.09000        0.150000E+08
     3.09035        0.150000E+08
     3.09165        0.150000E+08
     3.09335        0.150000E+08
     3.09465        0.150000E+08
     3.09500        0.150000E+08
     3.09535        0.150000E+08
     3.09665        0.150000E+08
     3.09835        0.150000E+08
     3.09965        0.150000E+08
     3.10000        0.150000E+08
     3.10035        0.150000E+08
     3.10165        0.150000E+08
     3.10335        0.150000E+08
     3.10465        0.150000E+08
     3.10500        0.150000E+08
     3.10535        0.150000E+08
     3.10665        0.150000E+08
     3.10835        0.150000E+08
     3.10965        0.150000E+08
     3.11000        0.150000E+08
     3.11035        0.150000E+08
     3.11165        0.150000E+08
     3.11335        0.150000E+08
     3.11465        0.150000E+08
     3.11500        0.150000E+08
     3.11535        0.150000E+08
     3.11665        0.150000E+08
     3.11835        0.150000E+08
     3.11965        0.150000E+08
     3.12000        0.150000E+08
     3.12035        0.150000E+08
     3.12165        0.150000E+08
     3.12335        0.150000E+08
     3.12465        0.150000E+08
     3.12500        0.150000E+08
     3.12535        0.150000E+08
     3.12665        0.150000E+08
     3.12835        0.150000E+08
     3.12965        0.150000E+08
     3.13000        0.150000E+08
     3.13035        0.150000E+08
     3.13165        0.150000E+08
     3.13335        0.150000E+08
     3.13465        0.150000E+08
     3.13500        0.150000E+08
     3.13535        0.150000E+08
     3.13665        0.150000E+08
     3.13835        0.150000E+08
     3.13965        0.150000E+08
     3.14000        0.150000E+08
     3.14035        0.150000E+08
     3.14165        0.150000E+08
     3.14335        0.150000E+08
     3.14465        0.150000E+08
     3.14500        0.150000E+08
     3.14535        0.150000E+08
     3.14665        0.150000E+08
     3.14835        0.150000E+08
     3.14965        0.150000E+08
     3.15000        0.150000E+08
     3.15035        0.150000E+08
     3.15165        0.150000E+08
     3.15335        0.150000E+08
     3.15465        0.150000E+08
     3.15500        0.150000E+08
     3.15535        0.150000E+08
     3.15665        0.150000E+08
     3.15835        0.150000E+08
     3.15965        0.150000E+08
     3.16000        0.150000E+08
     3.16035        0.150000E+08
     3.16165        0.150000E+08
     3.16335        0.150000E+08
     3.16465        0.150000E+08
     3.16500        0.150000E+08
     3.16535        0.150000E+08
     3.16665        0.150000E+08
     3.16835        0.150000E+08
     3.16965        0.150000E+08
     3.17000        0.150000E+08
     3.17035        0.150000E+08
     3.17165        0.150000E+08
     3.17335        0.150000E+08
     3.17465        0.150000E+08
     3.17500        0.150000E+08
     3.17535        0.150000E+08
     3.17665        0.150000E+08
     3.17835        0.150000E+08
     3.17965        0.150000E+08
     3.18000        0.150000E+08
     3.18035        0.150000E+08
     3.18165        0.150000E+08
     3.18335        0.150000E+08
     3.18465        0.150000E+08
     3.18500        0.150000E+08
     3.18535        0.150000E+08
     3.18665        0.150000E+08
     3.18835        0.150000E+08
     3.18965        0.150000E+08
     3.19000        0.150000E+08
     3.19035        0.150000E+08
     3.19165        0.150000E+08
     3.19335        0.150000E+08
     3.19465        0.150000E+08
     3.19500        0.150000E+08
     3.19535        0.150000E+08
     3.19665        0.150000E+08
     3.19835        0.150000E+08
     3.19965        0.150000E+08
     3.20000        0.150000E+08
